Folder: OverView/Workshop_Day1/Data

Note: Workshop_Day1/Data/mines.txt
COLORADO SCHOOL OF MINES
DEPARTMENT OF CHEMISTRY
The Chemistry Department at Colorado School of Mines emphasizes interdisciplinary approaches to solving real-world problems in areas such as sustainability, alternative fuels and energy, bio-detection, materials, nanomedicines and water quality assessment.

Note: Workshop_Day1/Data/rand_gaussian.txt
# Random Gaussian Distribution
10.7400
10.2160
10.2340
9.97830
13.2600
9.39690
11.0520
10.6700
9.12670
9.71690
10.7270
8.43470
10.6210
9.66920
10.6280
9.38730
10.4830
9.86800
11.4260
10.4920
8.66930
11.5270
9.35480
10.4510
9.36510
9.13620
10.7280
10.9640
10.5640
10.3210
8.98100
10.1290
9.36920
9.98470
10.4100
9.41290
8.40480
8.07090
9.38680
11.1920
8.59180
10.4570
8.49780
10.5220
10.5760
10.7200
9.63250
9.58700
8.34560
11.1080

Note: Workshop_Day1/README.txt
Workshop Day1 Thurs 8/15
		Format:
			About 3 hours with a break in the middle where we walk participants through jupyter notebook tutorials
		Outcomes:
			Participants have exposure to opening different types of files and querying the data with numpy, pandas and/or polars (.csv, .xlsx, .txt, other?)
			Participants can handle common issues when loading data (numbers are read as strings, the header shifts file lines/indexing, etc)
			Participants can manipulate data by selecting rows or columns, converting data types, dropping nan values and performing basic numerical operations
			
			Participants can use os or glob to loop through their files and perform action
			Participants can plot data from different file types in a variety of plot styles (scatter plot, bar graph, line graph, etc) in matplotlib

File: Al2O3_Expt.txt
# Al2O3 Experimental X-ray Diffraction
# 2theta  Intensity
5.000	21.000
5.290	32.000
5.580	23.000
5.870	28.000
6.160	24.000
6.450	16.000
6.740	19.000
7.030	17.000
7.320	21.000
7.610	14.000
7.900	23.000
8.190	12.000
8.480	14.000
8.770	17.000
9.060	19.000
9.350	13.000
9.640	16.000
9.930	14.000
10.220	16.000
10.510	22.000
10.800	10.000
11.090	13.000
11.380	11.000
11.670	10.000
11.960	13.000
12.250	12.000
12.540	13.000
12.830	19.000
13.120	11.000
13.410	17.000
13.700	16.000
13.990	15.000
14.280	13.000
14.570	14.000
14.860	18.000
15.150	8.000
15.440	12.000
15.730	7.000
16.020	9.000
16.310	11.000
16.600	10.000
16.890	16.000
17.180	10.000
17.470	13.000
17.760	11.000
18.050	7.000
18.340	10.000
18.630	6.000
18.920	8.000
19.210	5.000
19.500	14.000
19.790	7.000
20.080	11.000
20.370	6.000
20.660	9.000
20.950	11.000
21.240	7.000
21.530	6.000
21.820	11.000
22.110	3.000
22.400	12.000
22.690	7.000
22.980	6.000
23.270	9.000
23.560	7.000
23.850	10.000
24.140	6.000
24.430	6.000
24.720	8.000
25.010	13.000
25.300	25.000
25.590	251.000
25.880	22.000
26.170	9.000
26.460	13.000
26.750	13.000
27.040	13.000
27.330	7.000
27.620	12.000
27.910	11.000
28.200	10.000
28.490	9.000
28.780	12.000
29.070	5.000
29.360	6.000
29.650	8.000
29.940	10.000
30.230	8.000
30.520	9.000
30.810	8.000
31.100	9.000
31.390	6.000
31.680	21.000
31.970	4.000
32.260	11.000
32.550	9.000
32.840	9.000
33.130	6.000
33.420	9.000
33.710	6.000
34.000	14.000
34.290	11.000
34.580	7.000
34.870	15.000
35.160	380.000
35.450	49.000
35.740	9.000
36.030	16.000
36.320	14.000
36.610	8.000
36.900	5.000
37.190	8.000
37.480	10.000
37.770	100.000
38.060	38.000
38.350	19.000
38.640	8.000
38.930	15.000
39.220	3.000
39.510	11.000
39.800	14.000
40.090	13.000
40.380	7.000
40.670	5.000
40.960	10.000
41.250	6.000
41.540	9.000
41.830	12.000
42.120	10.000
42.410	7.000
42.700	10.000
42.990	26.000
43.280	87.000
43.570	198.000
43.860	13.000
44.150	14.000
44.440	8.000
44.730	16.000
45.020	14.000
45.310	8.000
45.600	12.000
45.890	8.000
46.180	17.000
46.470	8.000
46.760	6.000
47.050	11.000
47.340	12.000
47.630	10.000
47.920	11.000
48.210	10.000
48.500	10.000
48.790	7.000
49.080	6.000
49.370	8.000
49.660	10.000
49.950	7.000
50.240	10.000
50.530	8.000
50.820	8.000
51.110	9.000
51.400	10.000
51.690	14.000
51.980	11.000
52.270	21.000
52.560	208.000
52.850	54.000
53.140	20.000
53.430	16.000
53.720	7.000
54.010	9.000
54.300	5.000
54.590	11.000
54.880	8.000
55.170	7.000
55.460	11.000
55.750	9.000
56.040	6.000
56.330	8.000
56.620	10.000
56.910	12.000
57.200	34.000
57.490	304.000
57.780	161.000
58.070	23.000
58.360	9.000
58.650	11.000
58.940	5.000
59.230	17.000
59.520	7.000
59.810	28.000
60.100	18.000
60.390	9.000
60.680	13.000
60.970	17.000
61.260	24.000
61.550	33.000
61.840	12.000
62.130	9.000
62.420	5.000
62.710	8.000
63.000	10.000
63.290	11.000
63.580	12.000
63.870	11.000
64.160	6.000
64.450	6.000
64.740	8.000
65.030	4.000
65.320	6.000
65.610	8.000
65.900	11.000
66.190	15.000
66.480	88.000
66.770	167.000
67.060	14.000
67.350	12.000
67.640	15.000
67.930	20.000
68.220	261.000
68.510	91.000
68.800	18.000
69.090	7.000
69.380	11.000
69.670	11.000
69.960	9.000
70.250	6.000
70.540	5.000
70.830	8.000
71.120	3.000
71.410	15.000
71.700	9.000
71.990	5.000
72.280	8.000
72.570	5.000
72.860	6.000
73.150	5.000
73.440	7.000
73.730	5.000
74.020	11.000
74.310	17.000
74.600	12.000
74.890	7.000
75.180	7.000
75.470	8.000
75.760	10.000
76.050	7.000
76.340	12.000
76.630	18.000
76.920	80.000
77.210	54.000
77.500	27.000
77.790	5.000
78.080	3.000
78.370	3.000
78.660	8.000
78.950	12.000
79.240	6.000
79.530	3.000
79.820	10.000
80.110	6.000
80.400	13.000
80.690	37.000
80.980	31.000
81.270	7.000
81.560	8.000
81.850	10.000
82.140	8.000
82.430	5.000
82.720	6.000
83.010	7.000
83.300	11.000
83.590	4.000
83.880	7.000
84.170	10.000
84.460	23.000
84.750	8.000
85.040	11.000
85.330	8.000
85.620	8.000
85.910	9.000
86.200	15.000
86.490	19.000
86.780	14.000
87.070	4.000
87.360	3.000
87.650	10.000
87.940	8.000
88.230	5.000
88.520	12.000
88.810	15.000
89.100	42.000
89.390	14.000
89.680	9.000
89.970	9.000
89.990	8.000